{
  "resourceType": "QuestionnaireResponse",
  "id": "3141",
  "text": {
    "status": "generated",
    "div": "<div xmlns=\"http://www.w3.org/1999/xhtml\">\n      <pre>\n            Comorbidity? YES\n              Cardial Comorbidity? YES\n                Angina? YES\n                MI? NO\n              Vascular Comorbidity?\n                (no answers)\n              ...\n            Histopathology\n              Abdominal\n                pT category: 1a\n              ...\n          </pre>\n    </div>"
  },
  "contained": [
    {
      "resourceType": "Patient",
      "id": "patsub",
      "identifier": [
        {
          "system": "http://cancer.questionnaire.org/systems/id/patientnr",
          "value": "A34442332"
        },
        {
          "type": {
            "text": "Dutch BSN"
          },
          "system": "urn:oid:2.16.840.1.113883.2.4.6.3",
          "value": "188912345"
        }
      ],
      "gender": "male",
      "birthDate": "1972-11-30"
    },
    {
      "resourceType": "Practitioner",
      "id": "questauth",
      "identifier": [
        {
          "type": {
            "text": "AUMC, Den Helder"
          },
          "system": "http://cancer.questionnaire.org/systems/id/org",
          "value": "AUMC"
        }
      ]
    }
  ],
  "status": "completed",
  "subject": {
    "reference": "#patsub"
  },
  "authored": "2013-02-19T14:15:00-05:00",
  "author": {
    "reference": "#questauth"
  },
  "questionnaire": "https://fhir.nav.no/Questionnaire/NAV-06-03.04",
  "item": [
    {
      "linkId": "7.1",
      "answer": [
        {
          "valueCoding": {
            "system": "http://cancer.questionnaire.org/system/code/yesno",
            "code": "1",
            "display": "Yes"
          }
        }
      ]
    },
    {
      "linkId": "7.2",
      "answer": [
        {
          "valueBoolean": true
        }
      ]
    },
    {
      "linkId": "7.5",
      "answer": [
        {
          "valueCoding": {
            "system": "http://cancer.questionnaire.org/system/code/yesno",
            "code": "M",
            "display": "Male"
          }
        }
      ]
    }
  ]
}